time,seconds_elapsed,z,y,x
1742841390124464000,0.161464111328125,0.0846860259771347,-0.07350108027458191,-0.05991935729980469
1742841390134455000,0.171455078125,0.10386022180318832,-0.06071828305721283,-0.06204982474446297
1742841390144447500,0.181447509765625,0.1283605843782425,-0.04047885537147522,-0.06311506032943726
1742841390154441500,0.19144140625,0.1603175699710846,-0.02236989326775074,-0.05991935729980469
1742841390164436500,0.2014365234375,0.19333979487419128,-0.02236989326775074,-0.04926702752709389
1742841390174432500,0.2114326171875,0.2231663167476654,-0.02236989326775074,-0.03541899845004082
1742841390184429300,0.22142919921875,0.25086238980293274,-0.01384802907705307,-0.020505735650658607
1742841390194425900,0.23142578125,0.2742975056171417,-0.0010652330238372087,0.0007989247678779066
1742841390204419800,0.241419921875,0.2870802879333496,0.02343512699007988,0.023168819025158882
1742841390214408200,0.251408203125,0.29134124517440796,0.05645735189318657,0.028494983911514282
1742841390224396800,0.261396728515625,0.2870802879333496,0.06604444980621338,0.012516488321125507
1742841390234385400,0.271385498046875,0.2785584330558777,0.05858781561255455,-0.019440501928329468
1742841390244373800,0.281373779296875,0.264710396528244,0.04580501839518547,-0.05352795869112015
1742841390254362400,0.2913623046875,0.245536208152771,0.0426093190908432,-0.0790935531258583
1742841390264350700,0.301350830078125,0.22423155605793,0.05006595328450203,-0.08548495173454285
1742841390274339300,0.31133935546875,0.2114487588405609,0.06178351491689682,-0.0695064514875412
1742841390284327700,0.32132763671875,0.20399212837219238,0.06071828305721283,-0.03648423030972481
1742841390294301000,0.331301025390625,0.1816222369670868,0.05432688444852829,0.008255556225776672
1742841390304274700,0.341274658203125,0.15392617881298065,0.04367455467581749,0.05938674136996269
1742841390314250200,0.351250244140625,0.12303441762924194,0.0319569893181324,0.09880036115646362
1742841390324228000,0.36122802734375,0.0964035913348198,0.03089175745844841,0.12543119490146637
1742841390334208300,0.371208251953125,0.07722939550876617,0.04473978653550148,0.13714875280857086
1742841390344191500,0.38119140625,0.0644465982913971,0.08095771074295044,0.14034445583820343
1742841390354177500,0.391177490234375,0.055924732238054276,0.14061075448989868,0.14140968024730682
1742841390364166400,0.40116650390625,0.059120431542396545,0.18854624032974243,0.12117026001214981
1742841390374158000,0.411157958984375,0.0750989317893982,0.20878566801548004,0.08708280324935913
1742841390384152300,0.42115234375,0.10066451877355576,0.19387240707874298,0.06577813625335693
1742841390394148600,0.431148681640625,0.13049104809761047,0.16724158823490143,0.06577813625335693
1742841390404146700,0.441146728515625,0.16138280928134918,0.14061075448989868,0.0689738392829895
1742841390414146300,0.451146240234375,0.19547025859355927,0.11078423261642456,0.06790860742330551
1742841390424146400,0.461146484375,0.23701435327529907,0.05432688444852829,0.0583215095102787
1742841390434147000,0.47114697265625,0.2796236574649811,-0.02023942768573761,0.028494983911514282
1742841390444144600,0.48114453125,0.306254506111145,-0.05006595328450203,-0.0002663082559593022
1742841390454133000,0.491133056640625,0.32649391889572144,-0.04473978653550148,-0.03328853100538254
1742841390464121600,0.50112158203125,0.3616466224193573,-0.04687025398015976,-0.05459319427609444
1742841390474110200,0.511110107421875,0.3957340717315674,-0.06924014538526535,-0.05139749497175217
1742841390484098600,0.5210986328125,0.4340824484825134,-0.1267627328634262,-0.03435376659035683
1742841390494071600,0.531071533203125,0.4884093403816223,-0.2332860380411148,0.0050598569214344025
1742841390504045300,0.54104541015625,0.5459319353103638,-0.3621792197227478,0.07536523789167404
1742841390514020600,0.5510205078125,0.6045197248458862,-0.46457475423812866,0.14993155002593994
1742841390523998200,0.560998291015625,0.65245521068573,-0.5220973491668701,0.20425842702388763
1742841390533978400,0.570978271484375,0.6833469867706299,-0.5338149070739746,0.22343263030052185
1742841390543961300,0.58096142578125,0.6822817325592041,-0.4709661602973938,0.20425842702388763
1742841390553947400,0.590947509765625,0.6503247618675232,-0.3430050313472748,0.15206201374530792
1742841390563936300,0.600936279296875,0.6354115009307861,-0.13634982705116272,0.05938674136996269
1742841390573928000,0.610927978515625,0.6045197248458862,0.02556559257209301,-0.06204982474446297
1742841390583922200,0.620922119140625,0.5651060938835144,0.1480673849582672,-0.1749645173549652
1742841390593918500,0.63091845703125,0.5193011164665222,0.20665520429611206,-0.24420467019081116
1742841390603916800,0.640916748046875,0.46284374594688416,0.20026381313800812,-0.2687050402164459
1742841390613916400,0.65091650390625,0.39999499917030334,0.1171756312251091,-0.26763978600502014
1742841390623917000,0.6609169921875,0.3392767310142517,-0.0426093190908432,-0.25485700368881226
1742841390633917700,0.670917724609375,0.2774932086467743,-0.18428531289100647,-0.23674803972244263
1742841390643915300,0.680915283203125,0.2114487588405609,-0.23115555942058563,-0.22076953947544098
1742841390653904000,0.69090380859375,0.15073047578334808,-0.19919857382774353,-0.218639075756073
1742841390663892200,0.700892333984375,0.09959928691387177,-0.12143656611442566,-0.20266057550907135
1742841390673880800,0.710880859375,0.048468101769685745,-0.01917419396340847,-0.13981182873249054
1742841390683869200,0.720869140625,0.0015978495357558131,0.04473978653550148,-0.05246272683143616
1742841390693842400,0.730842529296875,-0.038881003856658936,0.04687025398015976,0.03275591507554054
1742841390703816200,0.740816162109375,-0.0857512578368187,-0.02236989326775074,0.13714875280857086
1742841390713791500,0.75079150390625,-0.14220860600471497,-0.191741943359375,0.2830856740474701
1742841390723769300,0.760769287109375,-0.18588316440582275,-0.45498764514923096,0.464175283908844
1742841390733749500,0.77074951171875,-0.23168818652629852,-0.6733604073524475,0.7113093733787537
1742841390743732700,0.780732666015625,-0.28281936049461365,-0.7958621978759766,1.1043803691864014
1742841390753718800,0.79071875,-0.3925383687019348,-0.7937317490577698,1.5752133131027222
1742841390763707600,0.800707763671875,-0.5608451962471008,-0.6424686908721924,2.09824275970459
1742841390773699300,0.81069921875,-0.7472609877586365,-0.3846822679042816,2.5999674797058105
1742841390783693600,0.820693603515625,-0.8985240459442139,-0.0532616525888443,2.948298692703247
1742841390793690000,0.830690185546875,-0.9688294529914856,0.10013190656900406,3.088909387588501
1742841390803688200,0.840688232421875,-0.9358072280883789,-0.1501978635787964,3.051626205444336
1742841390813687800,0.850687744140625,-0.8793498873710632,-0.6296858787536621,2.8801238536834717
1742841390823688200,0.860688232421875,-0.8346100449562073,-1.0866708755493164,2.6649467945098877
1742841390833688800,0.870688720703125,-0.8228924870491028,-1.4754809141159058,2.5115530490875244
1742841390843686100,0.88068603515625,-0.8346100449562073,-1.6874622106552124,2.4636175632476807
1742841390853674500,0.890674560546875,-0.858045220375061,-1.7087669372558594,2.5168793201446533
1742841390863663000,0.9006630859375,-0.867632269859314,-1.5223511457443237,2.6276636123657227
1742841390873651500,0.9106513671875,-0.859110414981842,-1.1399325132369995,2.672403335571289
1742841390883640000,0.92064013671875,-0.8559147119522095,-0.7042521834373474,2.639381170272827
1742841390893613000,0.930613037109375,-0.8548495173454285,-0.3932041525840759,2.517944574356079
1742841390903586800,0.9405869140625,-0.859110414981842,-0.2684387266635895,2.335789680480957
1742841390913562400,0.950562255859375,-0.859110414981842,-0.3387441039085388,2.0854599475860596
1742841390923540200,0.960540283203125,-0.858045220375061,-0.5529890656471252,1.8138254880905151
1742841390933520400,0.970520263671875,-0.8633713722229004,-0.8246235251426697,1.5933222770690918
1742841390943503600,0.980503662109375,-0.8644366264343262,-1.0248873233795166,1.421819806098938
1742841390953489700,0.99048974609375,-0.8569799661636353,-1.1527153253555298,1.2737523317337036
1742841390963478500,1.000478515625,-0.8228924870491028,-1.198520302772522,1.1342068910598755
1742841390973470200,1.01047021484375,-0.7568480372428894,-1.1942594051361084,0.9605738520622253
1742841390983464400,1.02046435546875,-0.7067821025848389,-1.0781489610671997,0.7006570100784302
1742841390993460700,1.030460693359375,-0.6545857191085815,-0.8874722719192505,0.3981308341026306
1742841391003458800,1.040458740234375,-0.6332810521125793,-0.7127740383148193,0.1222354918718338
1742841391013458400,1.05045849609375,-0.6322157979011536,-0.6041202545166016,-0.07057169079780579
1742841391023458600,1.06045849609375,-0.6236939430236816,-0.6222292184829712,-0.18348638713359833
1742841391033459500,1.07045947265625,-0.5757584571838379,-0.730883002281189,-0.2527265250682831
1742841391043457000,1.08045703125,-0.4458000063896179,-0.9119726419448853,-0.3155752718448639
1742841391053445400,1.0904453125,-0.245536208152771,-1.0877361297607422,-0.39440253376960754
1742841391063433700,1.100433837890625,-0.050598569214344025,-1.1271497011184692,-0.4497946500778198
1742841391073422300,1.11042236328125,0.06657706201076508,-0.9311468005180359,-0.42635950446128845
1742841391083410700,1.12041064453125,0.10279498994350433,-0.4912055730819702,-0.29853156208992004
1742841391093384000,1.130384033203125,0.09746882319450378,-0.007456631399691105,-0.10572437942028046
1742841391103358000,1.14035791015625,0.11238208413124084,0.30359140038490295,0.08921326696872711
1742841391113333500,1.15033349609375,0.13475197553634644,0.46231111884117126,0.24473728239536285
1742841391123311400,1.160311279296875,0.15605664253234863,0.4708330035209656,0.356586754322052
1742841391133291800,1.170291748046875,0.1816222369670868,0.3078523576259613,0.4002613127231598
1742841391143275000,1.18027490234375,0.23275341093540192,0.07030537724494934,0.3459344208240509
1742841391153261000,1.190260986328125,0.3083849549293518,-0.12250179797410965,0.23301972448825836
1742841391163250000,1.20025,0.35845091938972473,-0.2013290375471115,0.12862688302993774
1742841391173241600,1.21024169921875,0.35418999195098877,-0.17469821870326996,0.05193011090159416
1742841391183235800,1.22023583984375,0.3179720640182495,-0.1065233051776886,0.029560215771198273
1742841391193232100,1.230232177734375,0.2657756507396698,-0.03408745676279068,0.06471290439367294
1742841391203230200,1.240230224609375,0.19973118603229523,0.0319569893181324,0.15206201374530792
1742841391213229800,1.250229736328125,0.137947678565979,0.05645735189318657,0.2617810070514679
1742841391223230000,1.26022998046875,0.08362079411745071,0.05006595328450203,0.34167349338531494
1742841391233230600,1.270230712890625,0.039946239441633224,0.04580501839518547,0.3885437548160553
1742841391243227600,1.2802275390625,0.033554840832948685,0.02556559257209301,0.41410934925079346
1742841391253216300,1.29021630859375,0.08362079411745071,-0.02023942768573761,0.39493513107299805
1742841391263204900,1.300204833984375,0.15605664253234863,-0.05539211630821228,0.3480648994445801
1742841391273193500,1.310193359375,0.22636201977729797,-0.07243584841489792,0.2926727831363678
1742841391283181800,1.320181884765625,0.28068891167640686,-0.09267527610063553,0.24793298542499542
1742841391293154800,1.33015478515625,0.31477636098861694,-0.11184946447610855,0.22023692727088928
1742841391303128600,1.340128662109375,0.3211677670478821,-0.1267627328634262,0.20532366633415222
1742841391313104000,1.350103759765625,0.30412402749061584,-0.1267627328634262,0.19254086911678314
1742841391323081500,1.36008154296875,0.2529928386211395,-0.08415340632200241,0.164844810962677
1742841391333061600,1.3700615234375,0.1699046641588211,0.02663082629442215,0.11903978884220123
1742841391343044600,1.380044677734375,0.09746882319450378,0.14700216054916382,0.07749570161104202
1742841391353030700,1.39003076171875,0.0644465982913971,0.2577863931655884,0.05299534276127815
1742841391363019000,1.40001904296875,0.07083799690008163,0.402658075094223,0.04873441159725189
1742841391373010200,1.41001025390625,0.11983871459960938,0.53794264793396,0.06045197322964668
1742841391383004000,1.42000390625,0.18375270068645477,0.6327484250068665,0.09453943371772766
1742841391393000000,1.43,0.24127528071403503,0.6924014687538147,0.15632294118404388
1742841391402997800,1.439997802734375,0.2998631000518799,0.7456631064414978,0.20958459377288818
1742841391412996600,1.44999658203125,0.36484232544898987,0.7776201367378235,0.20425842702388763
1742841391422996500,1.45999658203125,0.39040789008140564,0.8340774774551392,0.1531272530555725
1742841391432997000,1.4699970703125,0.4031907021999359,0.9171656370162964,0.08814803510904312
1742841391442997500,1.47999755859375,0.4276910722255707,1.0109061002731323,0.03382114693522453
1742841391452987100,1.489987060546875,0.45112618803977966,1.1461907625198364,0.00399462366476655
1742841391462975700,1.499975830078125,0.4777570068836212,1.358172059059143,-0.0077229393646121025
1742841391472949800,1.50994970703125,0.5011921525001526,1.6127628087997437,0.002929390873759985
1742841391482925000,1.519925048828125,0.5193011164665222,1.8758753538131714,0.06045197322964668
1742841391492901400,1.5299013671875,0.5171706080436707,2.108096122741699,0.18082331120967865
1742841391502879000,1.53987890625,0.4916050434112549,2.193314790725708,0.3587172329425812
1742841391512859100,1.549859130859375,0.44153907895088196,2.175205945968628,0.5824161767959595
1742841391522841300,1.55984130859375,0.3722989559173584,2.174140691757202,0.8306154608726501
1742841391532824800,1.569824951171875,0.3083849549293518,2.2412502765655518,1.0351401567459106
1742841391552800500,1.589800537109375,0.3211677670478821,2.66627836227417,1.2290126085281372
1742841391562793000,1.59979296875,0.3722989559173584,2.9474997520446777,1.314231276512146
1742841391572787700,1.60978759765625,0.42023444175720215,3.1871771812438965,1.3941236734390259
1742841391582784000,1.619783935546875,0.4596480429172516,3.3192660808563232,1.4250154495239258
1742841391592782300,1.6297822265625,0.4894745647907257,3.2958309650421143,1.3504492044448853
1742841391602782000,1.639781982421875,0.5129097104072571,3.156285524368286,1.175750970840454
1742841391612782600,1.649782470703125,0.521431565284729,3.0710668563842773,0.931812584400177
1742841391622783500,1.659783447265625,0.5118444561958313,3.1349806785583496,0.6612433791160583
1742841391632766700,1.6697666015625,0.4884093403816223,3.2905046939849854,0.41623979806900024
1742841391652736000,1.689736083984375,0.47456130385398865,3.5152690410614014,0.09134373068809509
1742841391662722000,1.69972216796875,0.5278229713439941,3.3799843788146973,0.009320789016783237
1742841391672709000,1.709709228515625,0.6119763851165771,2.9570868015289307,0.012516488321125507
1742841391682697200,1.719697265625,0.6993255019187927,2.3126208782196045,0.08601756393909454
1742841391692685800,1.729685791015625,0.7568480372428894,1.6266108751296997,0.1957365721464157
1742841391702675000,1.739675048828125,0.760043740272522,1.0993205308914185,0.3011946380138397
1742841391712664800,1.749664794921875,0.6918688416481018,0.836207926273346,0.3438039720058441
1742841391722655700,1.75965576171875,0.5778889060020447,0.8532516360282898,0.2383458912372589
1742841391732647400,1.7696474609375,0.437278151512146,1.0790810585021973,0.0018641578499227762
1742841391742639900,1.779639892578125,0.29453691840171814,1.4146294593811035,-0.3049229383468628
1742841391752632600,1.789632568359375,0.14114338159561157,1.68839430809021,-0.5681686401367188
1742841391762617900,1.799617919921875,-0.0079892473295331,1.746982216835022,-0.6768224239349365
1742841391772604200,1.809604248046875,-0.15712186694145203,1.664959192276001,-0.5905385613441467
1742841391782590200,1.819590087890625,-0.2956021726131439,1.4678910970687866,-0.35179319977760315
1742841391792577000,1.829576904296875,-0.40958210825920105,1.187734842300415,-0.04181039705872536
1742841391812552700,1.849552734375,-0.5512580871582031,0.5507254600524902,0.46950146555900574
1742841391822541800,1.859541748046875,-0.5608451962471008,0.28015628457069397,0.5302197337150574
1742841391832532000,1.869531982421875,-0.5299534201622009,0.08628387749195099,0.48015379905700684
1742841391842518500,1.8795185546875,-0.4703003764152527,-0.12356702983379364,0.3778914213180542
1742841391852506000,1.889506103515625,-0.4021254777908325,-0.37189948558807373,0.26497671008110046
1742841391862494700,1.89949462890625,-0.32436347007751465,-0.6744256615638733,0.1552577167749405
1742841391872484000,1.909484130859375,-0.2444709837436676,-0.9556471705436707,0.06577813625335693
1742841391882474200,1.91947412109375,-0.18481792509555817,-1.128214955329895,0.002929390873759985
1742841391892464600,1.929464599609375,-0.17310036718845367,-1.2006508111953735,-0.05991935729980469
1742841391902455300,1.939455322265625,-0.22423155605793,-1.2102378606796265,-0.14087706804275513
1742841391912446200,1.9494462890625,-0.3094501793384552,-1.2336729764938354,-0.23035664856433868
1742841391922437600,1.959437744140625,-0.4074516296386719,-1.282673716545105,-0.30066201090812683
1742841391932429600,1.9694296875,-0.5161054134368896,-1.3678923845291138,-0.3571193814277649
1742841391942421500,1.97942138671875,-0.629020094871521,-1.5361992120742798,-0.40505486726760864
1742841391952413400,1.989413330078125,-0.7270215153694153,-1.8152902126312256,-0.4189028739929199
1742841391962403300,1.9994033203125,-0.7994573712348938,-2.1007726192474365,-0.3549889028072357
1742841391972392000,2.009391845703125,-0.8463276624679565,-2.2072958946228027,-0.23355233669281006
1742841391982380300,2.01938037109375,-0.844197154045105,-1.975075125694275,-0.08335448056459427
1742841391992368600,2.02936865234375,-0.7706961035728455,-1.4222192764282227,0.05086487531661987
1742841392002357200,2.039357177734375,-0.5651060938835144,-0.6286206245422363,0.1009308323264122
1742841392012345600,2.049345703125,-0.2998631000518799,0.07137060910463333,0.0689738392829895
1742841392022334000,2.059333984375,-0.08042509108781815,0.5485950112342834,0.013581721112132072
1742841392032322600,2.069322509765625,0.10066451877355576,0.7094451785087585,-0.0482017956674099
1742841392042311000,2.079310791015625,0.22742724418640137,0.6284874677658081,-0.07802832126617432
1742841392052299300,2.08929931640625,0.3222329914569855,0.3856143653392792,-0.05778888985514641
1742841392062288000,2.099287841796875,0.39040789008140564,0.1065233051776886,0.018907885998487473
1742841392082264800,2.119264892578125,0.437278151512146,-0.20772044360637665,0.16804051399230957
1742841392092239400,2.1292392578125,0.43301722407341003,-0.1810896098613739,0.11690932512283325
1742841392102215000,2.13921484375,0.42982152104377747,-0.07989247888326645,-0.00452724052593112
1742841392112192300,2.149192138671875,0.4340824484825134,0.0426093190908432,-0.14620323479175568
1742841392122171600,2.159171630859375,0.4149082601070404,0.15339355170726776,-0.279357373714447
1742841392132153000,2.169153076171875,0.3499290347099304,0.21730753779411316,-0.39546775817871094
1742841392142137300,2.179137451171875,0.22636201977729797,0.25139498710632324,-0.4882761836051941
1742841392152124000,2.1891240234375,0.09320788830518723,0.2450035959482193,-0.520233154296875
1742841392162113000,2.199113037109375,-0.0026630824431777,0.11184946447610855,-0.4637758135795593
1742841392172104400,2.2091044921875,-0.053794268518686295,-0.07989247888326645,-0.3251623809337616
1742841392182098400,2.219098388671875,-0.0644465982913971,-0.3430050313472748,-0.14194230735301971
1742841392192094000,2.229093994140625,-0.0964035913348198,-0.6105116605758667,0.04234301298856735
1742841392202091300,2.23909130859375,-0.14646953344345093,-0.8714937567710876,0.22130216658115387
1742841392212089600,2.249089599609375,-0.23594911396503448,-1.0632357597351074,0.3235645294189453
1742841392222088700,2.259088623046875,-0.3509942889213562,-1.1122363805770874,0.31823837757110596
1742841392232088000,2.269088134765625,-0.47456130385398865,-1.077083706855774,0.22343263030052185
1742841392242083000,2.2790830078125,-0.6023892760276794,-0.9950608015060425,0.10519175976514816
1742841392252071700,2.28907177734375,-0.7174344658851624,-0.937538206577301,0.03595161437988281
1742841392262060300,2.299060302734375,-0.8058487772941589,-1.0089088678359985,0.0583215095102787
1742841392272049000,2.309048828125,-0.8548495173454285,-1.2549777030944824,0.18082331120967865
1742841392282037500,2.31903759765625,-0.867632269859314,-1.6704185009002686,0.3587172329425812
1742841392292010800,2.3290107421875,-0.8303491473197937,-2.220078706741333,0.5600462555885315
1742841392301985000,2.338985107421875,-0.7611089944839478,-2.6962380409240723,0.7464620471000671
1742841392311961300,2.34896142578125,-0.7206301689147949,-2.9700028896331787,0.8828118443489075
1742841392321939700,2.358939697265625,-0.7216953635215759,-3.0690693855285645,0.9914656281471252
1742841392331920400,2.36892041015625,-0.7643046975135803,-2.9561548233032227,1.1682943105697632
1742841392341904000,2.37890380859375,-0.8388710021972656,-2.7431082725524902,1.377079963684082
1742841392351890200,2.38889013671875,-0.9166330099105835,-2.4949088096618652,1.5411258935928345
1742841392361879000,2.398879150390625,-0.9709599018096924,-2.2776012420654297,1.5794742107391357
1742841392371870700,2.40887060546875,-1.002916932106018,-2.238187789916992,1.4761466979980469
1742841392381864700,2.41886474609375,-0.9485899806022644,-2.3585591316223145,1.2492520809173584
1742841392391860700,2.42886083984375,-0.7675004005432129,-2.5396487712860107,0.9520519971847534
1742841392401858600,2.438858642578125,-0.4766917824745178,-2.7271296977996826,0.7485924959182739
1742841392411857700,2.448857666015625,-0.23807957768440247,-2.712216377258301,0.7155702710151672
1742841392421857500,2.458857421875,-0.15073047578334808,-2.4459080696105957,0.8284850120544434
1742841392431857700,2.468857666015625,-0.1166430190205574,-2.1284687519073486,0.9307473301887512
1742841392441854500,2.4788544921875,-0.053794268518686295,-1.8802694082260132,0.871094286441803
1742841392451843000,2.488843017578125,0.060185667127370834,-1.4754809141159058,0.6005251407623291
1742841392461831400,2.49883154296875,0.19760072231292725,-0.8448629379272461,0.2170412242412567
1742841392471820000,2.508820068359375,0.3605813682079315,-0.19600287079811096,-0.08441971987485886
1742841392481808600,2.51880859375,0.4479304850101471,0.22582940757274628,-0.19413872063159943
1742841392491782000,2.528781982421875,0.43088674545288086,0.37709248065948486,-0.1547250896692276
1742841392501756700,2.538756591796875,0.37655988335609436,0.3483312129974365,-0.12809427082538605
1742841392511733000,2.54873291015625,0.29347169399261475,0.2439383566379547,-0.1653774231672287
1742841392521711400,2.55871142578125,0.20825305581092834,0.09480573982000351,-0.1983996480703354
1742841392531692300,2.5686923828125,0.16457849740982056,-0.08628387749195099,-0.1856168508529663
1742841392541675800,2.57867578125,0.14646953344345093,-0.23009033501148224,-0.16218173503875732
1742841392551662000,2.588662109375,0.18801362812519073,-0.3089175820350647,-0.09933298081159592
1742841392561651200,2.598651123046875,0.23701435327529907,-0.21943800151348114,0.0050598569214344025
1742841392571643000,2.608642822265625,0.26151469349861145,0.03621792420744896,0.12862688302993774
1742841392581636900,2.618636962890625,0.2785584330558777,0.29187384247779846,0.20958459377288818
1742841392591632400,2.62863232421875,0.2892107665538788,0.39733192324638367,0.22662831842899323
1742841392601629700,2.638629638671875,0.2892107665538788,0.3621792197227478,0.1744319051504135
1742841392611627800,2.648627685546875,0.2774932086467743,0.22582940757274628,0.021038351580500603
1742841392621627000,2.658626953125,0.24660144746303558,0.06604444980621338,-0.21224768459796906
1742841392631626000,2.6686259765625,0.18481792509555817,-0.03515268862247467,-0.46910199522972107
1742841392641625300,2.678625244140625,0.09320788830518723,-0.04793548583984375,-0.6480611562728882
1742841392651600400,2.688600341796875,-0.00905448105186224,-0.04687025398015976,-0.7023880481719971
1742841392661576700,2.69857666015625,-0.09107742458581924,-0.06924014538526535,-0.665104866027832
1742841392671554300,2.70855419921875,-0.1688394397497177,-0.11824086308479309,-0.5511249303817749
1742841392681533400,2.718533447265625,-0.245536208152771,-0.22795987129211426,-0.3645760118961334
1742841392691514000,2.72851416015625,-0.3083849549293518,-0.4166392683982849,-0.15259462594985962
1742841392701496800,2.738496826171875,-0.37655988335609436,-0.5860112905502319,0.019973119720816612
1742841392711482000,2.748482177734375,-0.46177852153778076,-0.6275554299354553,0.12010502070188522
1742841392721469700,2.7584697265625,-0.5235620141029358,-0.5252930521965027,0.14886631071567535
1742841392731459600,2.76845947265625,-0.5395405292510986,-0.3398093283176422,0.14567062258720398
1742841392741451500,2.778451416015625,-0.5011921525001526,-0.15445879101753235,0.13501828908920288
1742841392751445800,2.78844580078125,-0.39892977476119995,-0.04793548583984375,0.12649641931056976
1742841392761441300,2.798441162109375,-0.25086238980293274,-0.05432688444852829,0.12862688302993774
1742841392771437800,2.808437744140625,-0.09320788830518723,-0.16404588520526886,0.1339530497789383
1742841392781435600,2.818435546875,0.034620072692632675,-0.3217003643512726,0.12756165862083435
1742841392791434000,2.82843408203125,0.09427312016487122,-0.47735753655433655,0.12756165862083435
1742841392801429200,2.83842919921875,0.09853405505418777,-0.576424241065979,0.14034445583820343
1742841392811424800,2.8484248046875,0.0740336924791336,-0.5679023265838623,0.13608351349830627
1742841392821411000,2.8584111328125,0.041011471301317215,-0.46777045726776123,0.10625699162483215
1742841392831397600,2.868397705078125,0.020772043615579605,-0.3312874734401703,0.04660394415259361
1742841392841384200,2.87838427734375,0.025032976642251015,-0.19600287079811096,-0.03648423030972481
1742841392851370500,2.88837060546875,0.055924732238054276,-0.08095771074295044,-0.12702903151512146
1742841392861357300,2.898357421875,0.10918638855218887,-0.0010652330238372087,-0.2069215178489685
1742841392871344000,2.90834423828125,0.1486000120639801,0.04793548583984375,-0.23035664856433868
1742841392881331200,2.918331298828125,0.15392617881298065,0.07882724702358246,-0.19094301760196686
1742841392891318500,2.928318603515625,0.1262301206588745,0.11611039936542511,-0.15152940154075623
1742841392901306000,2.93830615234375,0.07190322875976562,0.22795987129211426,-0.1877473145723343
1742841392911294700,2.948294677734375,0.017576344311237335,0.4133104085922241,-0.28894445300102234
1742841392921283600,2.95828369140625,-0.01118494663387537,0.6103785037994385,-0.41570720076560974
1742841392931273000,2.96827294921875,0.0037283156998455524,0.8095771074295044,-0.4999937415122986
1742841392941262300,2.978262451171875,0.058055199682712555,0.981079638004303,-0.4540555775165558
1742841392951252200,2.988252197265625,0.11877348273992538,1.0716243982315063,-0.24313943088054657
1742841392971232800,3.008232666015625,0.24234052002429962,1.1206251382827759,0.4311530590057373
1742841392981223200,3.01822314453125,0.30518925189971924,1.2463226318359375,0.6314168572425842
1742841392991214000,3.028214111328125,0.36697277426719666,1.4529778957366943,0.6463301181793213
1742841393001200400,3.038200439453125,0.44047385454177856,1.6308717727661133,0.4652405083179474
1742841393011187200,3.048187255859375,0.4990616738796234,1.7341994047164917,0.10199606418609619
1742841393021174500,3.058174560546875,0.5278229713439941,1.8077003955841064,-0.34114086627960205
1742841393031161600,3.06816162109375,0.5374100804328918,1.8886581659317017,-0.7663019895553589
1742841393041149200,3.078149169921875,0.543801486492157,1.9302022457122803,-0.9612396359443665
1742841393051137300,3.08813720703125,0.5512580871582031,2.0079641342163086,-0.8504554033279419
1742841393061126000,3.0981259765625,0.5374100804328918,2.0590953826904297,-0.45831650495529175
1742841393071114500,3.108114501953125,0.4990616738796234,1.985594391822815,0.07110430300235748
1742841393081104400,3.1181044921875,0.47562655806541443,1.802374243736267,0.44926202297210693
1742841393091094000,3.128093994140625,0.4926702678203583,1.587197184562683,0.4737623929977417
1742841393101084000,3.138083984375,0.49586597084999084,1.4455212354660034,0.14780108630657196
1742841393111073800,3.14807373046875,0.5182358622550964,1.3251498937606812,-0.477623850107193
1742841393121064400,3.158064453125,0.5949326157569885,1.2569749355316162,-1.2648310661315918
1742841393131052000,3.168052001953125,0.6268896460533142,1.1888000965118408,-1.9295364618301392
1742841393141039600,3.17803955078125,0.6119763851165771,1.127016544342041,-2.278932809829712
1742841393151027500,3.18802734375,0.5991935729980469,1.0673635005950928,-2.353499174118042
1742841393161015600,3.198015625,0.5427362322807312,1.1312774419784546,-2.179866313934326
1742841393171004000,3.20800390625,0.4362129271030426,1.1941262483596802,-1.8112956285476685
1742841393180992300,3.2179921875,0.3201025128364563,1.1685606241226196,-1.3937242031097412
1742841393190980600,3.227980712890625,0.26044946908950806,1.0673635005950928,-1.0635020732879639
1742841393200970000,3.237969970703125,0.22955772280693054,0.89692622423172,-0.902651846408844
1742841393210959400,3.24795947265625,0.17523083090782166,0.7019885778427124,-0.917565107345581
1742841393220948700,3.25794873046875,0.07190322875976562,0.49320289492607117,-1.0315450429916382
1742841393230937600,3.2679375,-0.0740336924791336,0.2652430236339569,-1.142329216003418
1742841393240926200,3.27792626953125,-0.2348838746547699,-0.0021304660476744175,-1.1732209920883179
1742841393250914600,3.28791455078125,-0.39892977476119995,-0.21517707407474518,-1.1156984567642212
1742841393260903700,3.297903564453125,-0.5310186743736267,-0.3163742125034332,-1.025153636932373
1742841393270893000,3.30789306640625,-0.605584979057312,-0.3387441039085388,-0.94100022315979
1742841393280882700,3.317882568359375,-0.6162372827529907,-0.3525921404361725,-0.8600425124168396
1742841393290868000,3.327867919921875,-0.5885412693023682,-0.3985303044319153,-0.7897371053695679
1742841393300853800,3.337853759765625,-0.5352795720100403,-0.5529890656471252,-0.7290188670158386
1742841393310840300,3.34784033203125,-0.4916050434112549,-0.8874722719192505,-0.6757571697235107
1742841393320827100,3.3578271484375,-0.5054530501365662,-1.2869346141815186,-0.566038191318512
1742841393330815000,3.36781494140625,-0.5459319353103638,-1.6128959655761719,-0.3762935698032379
1742841393340803600,3.377803466796875,-0.5928021669387817,-1.8365949392318726,-0.11318100988864899
1742841393350792700,3.387792724609375,-0.6322157979011536,-1.9207483530044556,0.19254086911678314
1742841393360782800,3.397782958984375,-0.6418029069900513,-1.926074504852295,0.5227631330490112
1742841393370773500,3.4077734375,-0.6609770655632019,-1.803572654724121,0.7762885689735413
1742841393380764400,3.417764404296875,-0.6801512837409973,-1.4595023393630981,0.9211602807044983
1742841393390755000,3.427755126953125,-0.7110430598258972,-0.9524514675140381,0.870029091835022
1742841393400744000,3.437743896484375,-0.7568480372428894,-0.3761604130268097,0.6239602565765381
1742841393410733300,3.4477333984375,-0.7951964735984802,0.06604444980621338,0.3544562757015228
1742841393420720600,3.457720703125,-0.797326922416687,0.3206351399421692,0.21597599983215332
1742841393430708000,3.4677080078125,-0.8260881900787354,0.4047885537147522,0.2692376375198364
1742841393440695300,3.4776953125,-0.8772193789482117,0.19600287079811096,0.5728290677070618
1742841393450683000,3.487682861328125,-0.9549813866615295,-0.17363297939300537,1.1043803691864014
1742841393460670500,3.49767041015625,-1.012503981590271,-0.7990579009056091,1.7254111766815186
1742841393470658600,3.507658447265625,-1.0380696058273315,-1.484002709388733,2.1845266819000244
1742841393480646700,3.517646728515625,-1.0103734731674194,-1.979336142539978,2.3485724925994873
1742841393490635000,3.527635009765625,-0.9549813866615295,-2.182795524597168,2.2164835929870605
1742841393500623400,3.537623291015625,-0.8836107850074768,-2.019814968109131,1.9352620840072632
1742841393510612200,3.5476123046875,-0.8186315894126892,-1.5415253639221191,1.6284749507904053
1742841393520601000,3.55760107421875,-0.7557828426361084,-0.8256887197494507,1.407971739768982
1742841393530590200,3.567590087890625,-0.6577813625335693,-0.16511112451553345,1.347253441810608
1742841393540579600,3.57757958984375,-0.5576494932174683,0.2897433936595917,1.4282112121582031
1742841393550569000,3.58756884765625,-0.4159734845161438,0.5155727863311768,1.5326039791107178
1742841393560558600,3.59755859375,-0.2561885416507721,0.6252917647361755,1.6018441915512085
1742841393570548000,3.6075478515625,-0.1294258087873459,0.7307498455047607,1.6071703433990479
1742841393580537600,3.61753759765625,-0.0047935484908521175,0.7350108027458191,1.5091688632965088
1742841393590527000,3.62752685546875,0.1177082508802414,0.6018566489219666,1.3025137186050415
1742841393600515600,3.637515625,0.2125139832496643,0.44313693046569824,1.0415315628051758
1742841393610504200,3.647504150390625,0.2561885416507721,0.3302222490310669,0.7698971629142761
1742841393620492500,3.657492431640625,0.2764279842376709,0.2897433936595917,0.5323501825332642
1742841393630480600,3.667480712890625,0.27110180258750916,0.30359140038490295,0.3981308341026306
1742841393640469000,3.677468994140625,0.2018616646528244,0.38667958974838257,0.44819679856300354
1742841393650457300,3.687457275390625,0.13475197553634644,0.5187684893608093,0.5802856683731079
1742841393660445700,3.69744580078125,0.12090394645929337,0.7254236936569214,0.6228950023651123
1742841393670434300,3.707434326171875,0.14007814228534698,1.0066452026367188,0.5334154367446899
1742841393680423000,3.7174228515625,0.22849248349666595,1.302780032157898,0.30971649289131165
1742841393690411000,3.727410888671875,0.4244953691959381,1.449782133102417,-0.06737598776817322
1742841393700399400,3.7373994140625,0.6279548406600952,1.5488488674163818,-0.5149070024490356
1742841393720376000,3.7573759765625,0.7089125514030457,2.0835957527160645,-1.0965242385864258
1742841393730365000,3.767364990234375,0.5427362322807312,2.4574925899505615,-1.254178762435913
1742841393740353500,3.777353515625,0.3009283244609833,2.8132803440093994,-1.310636043548584
1742841393750345700,3.787345703125,0.034620072692632675,2.921934127807617,-1.1668295860290527
1742841393760333600,3.79733349609375,-0.24873191118240356,2.735518455505371,-0.8983908891677856
1742841393770322700,3.80732275390625,-0.4820179343223572,2.370143413543701,-0.796128511428833
1742841393780314400,3.817314453125,-0.6226286888122559,2.052704095840454,-0.9665657877922058
1742841393790302700,3.827302734375,-0.6577813625335693,1.901440978050232,-1.3074404001235962
1742841393800291800,3.837291748046875,-0.5928021669387817,1.8204832077026367,-1.6973156929016113
1742841393810281700,3.84728173828125,-0.5171706080436707,1.6436545848846436,-1.9497759342193604
1742841393820277000,3.857277099609375,-0.4873441159725189,1.3006495237350464,-1.9881242513656616
1742841393830275800,3.86727587890625,-0.5714974999427795,0.9001219272613525,-1.852839708328247
1742841393840277800,3.87727783203125,-0.7877398133277893,0.38348388671875,-1.453377366065979
1742841393850284000,3.887283935546875,-1.1296796798706055,-0.38148656487464905,-0.8451292514801025
1742841393860292600,3.897292724609375,-1.517424464225769,-1.2368687391281128,-0.2932053804397583
1742841393870305000,3.907304931640625,-1.8742774724960327,-2.178534746170044,0.10519175976514816
1742841393880322800,3.91732275390625,-2.07560658454895,-3.300225019454956,0.3576519787311554
1742841393890182700,3.9271826171875,-2.0319318771362305,-4.081040859222412,0.4396749436855316
1742841393900055300,3.93705517578125,-1.7336667776107788,-4.228043079376221,0.37150001525878906
1742841393919844000,3.956843994140625,-1.3128997087478638,-1.8610951900482178,-0.19094301760196686
1742841393929775900,3.96677587890625,-1.3171606063842773,-0.007456631399691105,-0.2921401560306549
1742841393939734500,3.976734619140625,-1.304377794265747,1.5456531047821045,-0.19200825691223145
1742841393949722600,3.98672265625,-1.248985767364502,2.343512535095215,-0.030092833563685417
1742841393959738400,3.99673828125,-1.1350058317184448,2.1347270011901855,0.21171505749225616
1742841393969778700,4.00677880859375,-0.8708279728889465,0.7882724404335022,0.48867565393447876
1742841393979842000,4.016842041015625,-0.5800193548202515,-1.0877361297607422,0.7177007794380188
1742841393989923000,4.026923095703125,-0.3499290347099304,-2.8453705310821533,0.893464207649231
1742841394010123800,4.047123779296875,-0.11238208413124084,-3.6400344371795654,0.8370068669319153
1742841394020232400,4.057232421875,-0.30412402749061584,-2.5023655891418457,0.7762885689735413
1742841394030308900,4.067308837890625,-0.6002588272094727,-0.9513862729072571,0.8870728015899658
1742841394040357600,4.077357666015625,-0.8133054375648499,0.2663082480430603,1.001052737236023
1742841394050162700,4.08716259765625,-0.9613727927207947,0.8937305212020874,0.9840090274810791
1742841394059968800,4.09696875,-1.0146344900131226,1.1206251382827759,0.8423330187797546
1742841394069794800,4.106794921875,-0.9176982641220093,0.9086437821388245,0.679352343082428
1742841394079634700,4.116634765625,-0.6993255019187927,0.37922295928001404,0.525958776473999
1742841394089493800,4.12649365234375,-0.3509942889213562,-0.3493964374065399,0.4226312041282654
1742841394099388700,4.136388671875,0.00905448105186224,-1.0174306631088257,0.5227631330490112
1742841394109320700,4.14632080078125,0.2774932086467743,-1.4105017185211182,0.9989222884178162
1742841394119279600,4.156279541015625,0.4873441159725189,-1.6128959655761719,1.7467159032821655
1742841394129265200,4.16626513671875,0.6854774355888367,-1.6246135234832764,2.4838571548461914
1742841394139276300,4.1762763671875,0.7621742486953735,-1.3401962518692017,2.888645648956299
1742841394149311700,4.186311767578125,0.6631075739860535,-0.7426005601882935,2.8524277210235596
1742841394159368000,4.196367919921875,0.4447347819805145,0.0053261648863554,2.4689438343048096
1742841394169441800,4.20644189453125,0.20079642534255981,0.5390079021453857,1.737128734588623
1742841394179529200,4.216529296875,0.021837277337908745,0.7531197667121887,0.8412677645683289
1742841394189625300,4.226625244140625,-0.06551183015108109,0.5880086421966553,0.1126483902335167
1742841394199725600,4.2367255859375,-0.059120431542396545,0.04473978653550148,-0.13128997385501862
1742841394209817000,4.246817138671875,-0.09853405505418777,-0.5806851387023926,0.24686774611473083
1742841394219805700,4.2568056640625,-0.31371113657951355,-0.8704285621643066,1.138467788696289
1742841394229794300,4.266794189453125,-0.690803587436676,-0.5050535798072815,2.1504392623901367
1742841394239783000,4.276782958984375,-1.1456581354141235,0.53794264793396,2.704360246658325
1742841394249771500,4.286771484375,-1.540859580039978,2.01009464263916,2.5914456844329834
1742841394259760000,4.296760009765625,-1.8359291553497314,3.390636682510376,1.9853280782699585
1742841394269748500,4.30674853515625,-1.992518424987793,4.222583770751953,1.1629681587219238
1742841394279737000,4.316737060546875,-1.9488438367843628,4.463459491729736,0.38428282737731934
1742841394289725700,4.3267255859375,-1.7773412466049194,4.2673234939575195,-0.24420467019081116
1742841394299714300,4.33671435546875,-1.6026431322097778,3.9530797004699707,-0.7279536128044128
1742841394309702700,4.34670263671875,-1.4300752878189087,3.520595073699951,-1.0613715648651123
1742841394319691300,4.356691162109375,-1.2596380710601807,2.9858481884002686,-1.2627005577087402
1742841394329680000,4.366679931640625,-1.120092511177063,2.53525447845459,-1.3649629354476929
1742841394339668500,4.37666845703125,-1.0156997442245483,2.2007713317871094,-1.3468539714813232
1742841394349656800,4.38665673828125,-0.8857412338256836,1.9909205436706543,-1.2041127681732178
1742841394359645400,4.3966455078125,-0.6971949934959412,1.8748100996017456,-0.9250217080116272
1742841394369634000,4.406634033203125,-0.5171706080436707,1.8300703763961792,-0.4551208019256592
1742841394379622700,4.41662255859375,-0.4266258180141449,1.7885262966156006,0.09880036115646362
1742841394389611000,4.426611083984375,-0.3605813682079315,1.664959192276001,0.5430025458335876
1742841394399599600,4.436599609375,-0.31584158539772034,1.457238793373108,0.7986584305763245
1742841394409588200,4.446588134765625,-0.3083849549293518,1.2122352123260498,0.7975932359695435
1742841394419576600,4.45657666015625,-0.2870802879333496,0.9651011228561401,0.6410039663314819
1742841394429565200,4.466565185546875,-0.22955772280693054,0.5848129391670227,0.4961322844028473
1742841394439553800,4.4765537109375,-0.14646953344345093,0.0063913981430232525,0.4631100594997406
1742841394449542400,4.48654248046875,-0.010119713842868805,-0.8011884093284607,0.5738942623138428
1742841394459530800,4.49653076171875,0.2146444469690323,-1.6927884817123413,0.7528534531593323
1742841394469519400,4.506519287109375,0.5097140073776245,-2.421407699584961,0.9147688746452332
1742841394479508000,4.516508056640625,0.7962616682052612,-2.80489182472229,0.9680305123329163
1742841394489496600,4.52649658203125,0.9977238774299622,-2.724999189376831,0.7709624171257019
1742841394499485000,4.53648486328125,1.1489869356155396,-2.239253044128418,0.3118469715118408
1742841394509473500,4.5464736328125,1.2693582773208618,-1.7119625806808472,-0.29640108346939087
1742841394519462100,4.556462158203125,1.303445816040039,-1.298652172088623,-0.8014547228813171
1742841394529450800,4.56645068359375,1.2906630039215088,-0.9897346496582031,-1.0943937301635742
1742841394539439000,4.576439208984375,1.2555103302001953,-0.8736242055892944,-1.088002324104309
1742841394549427700,4.586427734375,1.2043790817260742,-0.9641690254211426,-0.7876066565513611
1742841394569405000,4.606405029296875,1.1234214305877686,-1.4722851514816284,0.10945269465446472
1742841394579393500,4.6163935546875,1.1255518198013306,-1.6437877416610718,0.4343487620353699
1742841394589382000,4.6263818359375,1.0861382484436035,-1.6373963356018066,0.6548519730567932
1742841394599370500,4.63637060546875,1.0382027626037598,-1.5223511457443237,0.7656362652778625
1742841394609359000,4.646359130859375,0.9860063195228577,-1.292260766029358,0.7496577501296997
1742841394619347700,4.65634765625,0.9252880215644836,-0.9279510974884033,0.5888075828552246
1742841394629336300,4.66633642578125,0.9103747606277466,-0.5359453558921814,0.30971649289131165
1742841394639325000,4.676324951171875,0.9231575727462769,-0.20665520429611206,0.04127778112888336
1742841394649313500,4.6863134765625,0.9284837245941162,0.01384802907705307,-0.08655018359422684
1742841394659302100,4.69630224609375,0.9476579427719116,0.11397993564605713,-0.04926702752709389
1742841394669290800,4.706290771484375,0.9561797976493835,0.18748101592063904,0.1318225860595703
1742841394679279400,4.716279296875,0.929548978805542,0.28228676319122314,0.3587172329425812
1742841394689268000,4.72626806640625,0.8720263838768005,0.4782896339893341,0.5035889148712158
1742841394699256600,4.736256591796875,0.797326922416687,0.8692301511764526,0.5472634434700012
1742841394709245200,4.7462451171875,0.7142387628555298,1.3453893661499023,0.5376763939857483
1742841394719233800,4.75623388671875,0.6066502332687378,1.8130265474319458,0.5408720970153809
1742841394729222400,4.766222412109375,0.418103963136673,2.1443140506744385,0.6463301181793213
1742841394739211000,4.7762109375,0.20612259209156036,2.3648173809051514,0.785875678062439
1742841394749199600,4.78619970703125,0.01438064593821764,2.4585578441619873,0.8668333888053894
1742841394759188200,4.796188232421875,-0.17736129462718964,2.470275402069092,0.8338111639022827
1742841394769176600,4.806176513671875,-0.28068891167640686,2.418078899383545,0.670830488204956
1742841394779165200,4.816165283203125,-0.3222329914569855,2.441514015197754,0.4066527187824249
1742841394789153800,4.82615380859375,-0.29134124517440796,2.3456430435180664,0.20425842702388763
1742841394799142400,4.836142333984375,-0.1486000120639801,2.1453793048858643,0.15632294118404388
1742841394809131000,4.846131103515625,0.048468101769685745,1.7970480918884277,0.2948032319545746
1742841394819119600,4.85611962890625,0.22103585302829742,1.3741506338119507,0.4194355010986328
1742841394829108200,4.866108154296875,0.38934266567230225,0.982144832611084,0.48867565393447876
1742841394839096800,4.876096923828125,0.5459319353103638,0.622096061706543,0.47056668996810913
1742841394849085400,4.88608544921875,0.6641727685928345,0.360048770904541,0.3587172329425812
1742841394869062700,4.906062744140625,0.8196967840194702,-0.0031956990715116262,0.1744319051504135
1742841394879051300,4.91605126953125,0.8505885601043701,-0.11930610239505768,0.09347419440746307
1742841394889040000,4.926039794921875,0.8388710021972656,-0.28122150897979736,0.05406057462096214
1742841394899028500,4.936028564453125,0.7664351463317871,-0.5316844582557678,0.016777420416474342
1742841394909017000,4.94601708984375,0.6737598776817322,-0.7734923362731934,-0.08655018359422684
1742841394919005700,4.956005615234375,0.5778889060020447,-1.0248873233795166,-0.26763978600502014
1742841394928994300,4.965994384765625,0.4585828185081482,-1.266695261001587,-0.4957328140735626
1742841394938983000,4.97598291015625,0.3179720640182495,-1.4115668535232544,-0.7545844316482544
1742841394948971300,4.98597119140625,0.1283605843782425,-1.427545428276062,-0.9537830352783203
1742841394958959900,4.9959599609375,-0.13688243925571442,-1.2613691091537476,-1.0464582443237305
1742841394968948500,5.005948486328125,-0.39786452054977417,-0.8938636779785156,-1.0549801588058472
1742841394978937000,5.01593701171875,-0.6066502332687378,-0.4485962688922882,-0.9420654773712158
1742841394988925700,5.02592578125,-0.7398043274879456,-0.07989247888326645,-0.6363435983657837
1742841394998914300,5.035914306640625,-0.7983921766281128,0.13102366030216217,-0.18348638713359833
1742841395008903000,5.04590283203125,-0.7792179584503174,0.17682868242263794,0.2937380075454712
1742841395018891500,5.0558916015625,-0.6844122409820557,0.12250179797410965,0.6687000393867493
1742841395028880100,5.065880126953125,-0.5480623841285706,0.04367455467581749,0.8881380558013916
1742841395038868700,5.07586865234375,-0.394668847322464,-0.05219641700387001,0.9595086574554443
1742841395048857300,5.085857421875,-0.23275341093540192,-0.1800243854522705,0.8721595406532288
1742841395058846000,5.095845947265625,-0.059120431542396545,-0.2556559145450592,0.6665695905685425
1742841395068834600,5.10583447265625,0.1262301206588745,-0.2769605815410614,0.440740168094635
1742841395078823200,5.1158232421875,0.28281936049461365,-0.28122150897979736,0.20106273889541626
1742841395088811800,5.125811767578125,0.4074516296386719,-0.21091613173484802,-0.017310036346316338
1742841395098800400,5.13580029296875,0.5139749050140381,-0.10545806586742401,-0.1760297566652298
1742841395108789000,5.1457890625,0.6045197248458862,-0.009587096981704235,-0.2921401560306549
1742841395118777600,5.155777587890625,0.7174344658851624,0.06497921794652939,-0.3656412363052368
1742841395128766000,5.165765869140625,0.8560478687286377,0.0852186381816864,-0.39227205514907837
1742841395138754600,5.175754638671875,0.9966586232185364,0.02556559257209301,-0.4007939398288727
1742841395148743200,5.1857431640625,1.0989210605621338,-0.07776200771331787,-0.33901041746139526
1742841395158731800,5.195731689453125,1.1330084800720215,-0.2013290375471115,-0.197334423661232
1742841395168720400,5.205720458984375,1.0403331518173218,-0.2652430236339569,-0.05672365799546242
1742841395178709000,5.215708984375,0.8165011405944824,-0.09374050796031952,0.014646953903138638
1742841395188697600,5.225697509765625,0.5256925225257874,0.3845491111278534,-0.04074516147375107
1742841395198686200,5.235686279296875,0.1922745555639267,0.997058093547821,-0.20159535109996796
1742841395208674800,5.2456748046875,-0.13049104809761047,1.5392616987228394,-0.3656412363052368
1742841395218663400,5.255663330078125,-0.39040789008140564,1.8790709972381592,-0.4669715166091919
1742841395228652000,5.265652099609375,-0.568301796913147,1.9898552894592285,-0.49147188663482666
1742841395238640600,5.275640625,-0.6769555807113647,1.9664201736450195,-0.49147188663482666
1742841395248629200,5.285629150390625,-0.5704323053359985,1.6479154825210571,-0.40292438864707947
1742841395258617900,5.295617919921875,-0.43088674545288086,1.244192123413086,-0.20053011178970337
1742841395268606500,5.3056064453125,-0.306254506111145,0.6572487950325012,0.06258244067430496
1742841395278595000,5.315594970703125,-0.1805569976568222,0.10758853703737259,0.2404763549566269
1742841395288583700,5.325583740234375,-0.07083799690008163,-0.32596129179000854,0.23621542751789093
1742841395298572300,5.335572265625,0.07190322875976562,-0.7170349955558777,0.15632294118404388
1742841395308560600,5.345560546875,0.18268746137619019,-1.0664314031600952,0.07430000603199005
1742841395318549200,5.35554931640625,0.27323228120803833,-1.3444572687149048,0.019973119720816612
1742841395328537900,5.365537841796875,0.353124737739563,-1.481872320175171,-0.00452724052593112
1742841395338526500,5.3755263671875,0.40851685404777527,-1.484002709388733,-0.006657706573605537
1742841395348515000,5.38551513671875,0.4244953691959381,-1.4531110525131226,0.0061250897124409676
1742841395358503700,5.395503662109375,0.42343011498451233,-1.3913275003433228,0.027429750189185143
1742841395368492300,5.4054921875,0.37869033217430115,-1.2837389707565308,-0.006657706573605537
1742841395378481000,5.41548095703125,0.3009283244609833,-1.1271497011184692,-0.18881255388259888
1742841395388469500,5.425469482421875,0.22423155605793,-0.9087769389152527,-0.4637758135795593
1742841395398458000,5.4354580078125,0.1603175699710846,-0.6957303285598755,-0.7077142000198364
1742841395408447200,5.445447265625,0.1166430190205574,-0.5913375020027161,-0.8611077666282654
1742841395418435600,5.455435546875,0.11131685227155685,-0.6083812117576599,-0.9154346585273743
1742841395428424200,5.465424072265625,0.10172975063323975,-0.6925346255302429,-0.8898690342903137
1742841395438412500,5.47541259765625,0.033554840832948685,-0.7319482564926147,-0.7694976925849915
1742841395448401000,5.48540087890625,-0.09746882319450378,-0.638207733631134,-0.5447335243225098
1742841395458389200,5.49538916015625,-0.2551233172416687,-0.45498764514923096,-0.28574874997138977
1742841395468378400,5.50537841796875,-0.4276910722255707,-0.18748101592063904,-0.05565842613577843
1742841395478367000,5.515366943359375,-0.5991935729980469,0.09054480493068695,0.1318225860595703
1742841395488356400,5.5253564453125,-0.7579132914543152,0.28441721200942993,0.2394111156463623
1742841395498344200,5.53534423828125,-0.8761541843414307,0.444202184677124,0.26604193449020386
1742841395508332000,5.54533203125,-0.9059807062149048,0.5549864172935486,0.23408496379852295
1742841395518320600,5.555320556640625,-0.8292838931083679,0.5485950112342834,0.17869283258914948
1742841395528309800,5.565309814453125,-0.6876079440116882,0.504920482635498,0.1222354918718338
1742841395538299400,5.57529931640625,-0.5256925225257874,0.49639859795570374,0.05086487531661987
1742841395548289800,5.585289794921875,-0.36697277426719666,0.41970181465148926,-0.013049104250967503
1742841395558280400,5.595280517578125,-0.23701435327529907,0.21091613173484802,-0.05672365799546242
1742841395568271400,5.605271240234375,-0.15712186694145203,-0.05219641700387001,-0.09400681406259537
1742841395578262500,5.615262451171875,-0.10066451877355576,-0.3217003643512726,-0.12596380710601807
1742841395588254000,5.62525390625,-0.039946239441633224,-0.5604457259178162,-0.12809427082538605
1742841395598245000,5.6352451171875,0.035685304552316666,-0.745796263217926,-0.10998530685901642
1742841395608234000,5.64523388671875,0.1283605843782425,-0.8363410830497742,-0.05565842613577843
1742841395618222600,5.65522265625,0.23168818652629852,-0.7852098941802979,0.027429750189185143
1742841395628211200,5.665211181640625,0.32542869448661804,-0.6264901757240295,0.10625699162483215
1742841395638199600,5.675199462890625,0.41064733266830444,-0.42303067445755005,0.1552577167749405
1742841395648188200,5.685188232421875,0.4596480429172516,-0.22156846523284912,0.13075734674930573
1742841395658176800,5.6951767578125,0.4585828185081482,-0.04047885537147522,0.03595161437988281
1742841395668165400,5.705165283203125,0.40851685404777527,0.15126308798789978,-0.08761541545391083
1742841395678153700,5.71515380859375,0.30199354887008667,0.32596129179000854,-0.1962691843509674
1742841395688142300,5.725142333984375,0.15499140322208405,0.4463326334953308,-0.2708354890346527
1742841395698115600,5.735115478515625,-0.0037283156998455524,0.5262250900268555,-0.2740311920642853
1742841395708089600,5.745089599609375,-0.14433906972408295,0.536877453327179,-0.18455162644386292
1742841395718065400,5.7550654296875,-0.24660144746303558,0.44207170605659485,-0.016244804486632347
1742841395728043300,5.765043212890625,-0.32329821586608887,0.28335198760032654,0.1541924774646759
1742841395738023700,5.775023681640625,-0.3733641803264618,0.08734910935163498,0.2394111156463623
1742841395748007000,5.7850068359375,-0.3925383687019348,-0.1288931965827942,0.22449785470962524
1742841395757993000,5.794992919921875,-0.38827744126319885,-0.3740299344062805,0.13821399211883545
1742841395767982000,5.804982177734375,-0.3754946291446686,-0.6296858787536621,0.0061250897124409676
1742841395777973500,5.814973388671875,-0.348863810300827,-0.8565804958343506,-0.17176882922649384
1742841395787967700,5.8249677734375,-0.2998631000518799,-1.0312787294387817,-0.35179319977760315
1742841395797964000,5.834964111328125,-0.23807957768440247,-1.1569762229919434,-0.4861457347869873
1742841395807962400,5.84496240234375,-0.1805569976568222,-1.2389991283416748,-0.5617772936820984
1742841395817961700,5.854961669921875,-0.13581721484661102,-1.2741518020629883,-0.5798861980438232
1742841395827962000,5.864962158203125,-0.09746882319450378,-1.2698909044265747,-0.5500596761703491
1742841395837962800,5.874962646484375,-0.052729032933712006,-1.2187597751617432,-0.4551208019256592
1742841395847960000,5.8849599609375,0.0015978495357558131,-1.0344743728637695,-0.2942706346511841
1742841395857948700,5.89494873046875,0.041011471301317215,-0.8512543439865112,-0.07057169079780579
1742841395867937000,5.90493701171875,0.08362079411745071,-0.7244915962219238,0.18827994167804718
1742841395877925600,5.914925537109375,0.12516488134860992,-0.6904041767120361,0.4098483920097351
1742841395887914200,5.924914306640625,0.13475197553634644,-0.6744256615638733,0.5302197337150574
1742841395897887200,5.93488720703125,0.08362079411745071,-0.615837812423706,0.5291544795036316
1742841395907861000,5.944861083984375,-0.020772043615579605,-0.49972742795944214,0.4322183132171631
1742841395917836500,5.95483642578125,-0.16138280928134918,-0.33661362528800964,0.272433340549469
1742841395927814100,5.964814208984375,-0.3201025128364563,-0.12143656611442566,0.07962616533041
1742841395937794600,5.974794677734375,-0.4553871154785156,0.09480573982000351,-0.08441971987485886
1742841395947777500,5.984777587890625,-0.5459319353103638,0.256721168756485,-0.17070358991622925
1742841395957763600,5.994763671875,-0.5959978699684143,0.4058537781238556,-0.17283405363559723
1742841395967752700,6.004752685546875,-0.605584979057312,0.5358121991157532,-0.12170287221670151
1742841395977744400,6.014744384765625,-0.5746932029724121,0.6071828007698059,-0.03222329914569855
1742841395987738600,6.024738525390625,-0.5086487531661987,0.6050523519515991,0.07323476672172546
1742841395997735200,6.034735107421875,-0.4159734845161438,0.5315513014793396,0.164844810962677
1742841396007733200,6.044733154296875,-0.31690680980682373,0.45165881514549255,0.2074541300535202
1742841396017732400,6.054732421875,-0.21038351953029633,0.3920057415962219,0.18295377492904663
1742841396027732200,6.064732177734375,-0.10066451877355576,0.3440702557563782,0.10732222348451614
1742841396037732600,6.074732666015625,0.0079892473295331,0.31211328506469727,0.03488638252019882
1742841396047731500,6.0847314453125,0.09320788830518723,0.31424373388290405,-0.0034620072692632675
1742841396057720000,6.094719970703125,0.16670896112918854,0.3312874734401703,-0.00133154122158885
1742841396067708700,6.104708740234375,0.23062294721603394,0.35791829228401184,0.013581721112132072
1742841396077697300,6.114697265625,0.2849498391151428,0.37922295928001404,0.0018641578499227762
1742841396087685600,6.124685546875,0.3307548463344574,0.37602725625038147,-0.03328853100538254
1742841396097659000,6.134658935546875,0.34673336148262024,0.3824186623096466,-0.05778888985514641
1742841396107632600,6.144632568359375,0.32542869448661804,0.4292888939380646,-0.0790935531258583
1742841396117607400,6.154607421875,0.2764279842376709,0.49426811933517456,-0.10465914756059647
1742841396127584800,6.164584716796875,0.2231663167476654,0.5635082721710205,-0.15152940154075623
1742841396137564700,6.174564697265625,0.15605664253234863,0.644465982913971,-0.20585627853870392
1742841396147547400,6.18454736328125,0.06657706201076508,0.6764229536056519,-0.23674803972244263
1742841396157533200,6.194533203125,-0.032489608973264694,0.6274222731590271,-0.21650861203670502
1742841396167521800,6.204521728515625,-0.13475197553634644,0.5038552284240723,-0.14833369851112366
1742841396177513500,6.214513427734375,-0.22849248349666595,0.3536573648452759,-0.05139749497175217
1742841396187508000,6.224508056640625,-0.2785584330558777,0.2034595012664795,0.024234050884842873
1742841396197504500,6.23450439453125,-0.27323228120803833,0.06284874677658081,0.04979964345693588
1742841396207502800,6.2445029296875,-0.22742724418640137,-0.0532616525888443,0.019973119720816612
1742841396217502700,6.254502685546875,-0.15925233066082,-0.12037133425474167,-0.0375494658946991
1742841396227503400,6.26450341796875,-0.08042509108781815,-0.16404588520526886,-0.09933298081159592
1742841396237504500,6.27450439453125,-0.0005326165119186044,-0.19813334941864014,-0.1547250896692276
1742841396247503000,6.284503173828125,0.07190322875976562,-0.20665520429611206,-0.17176882922649384
1742841396257491700,6.29449169921875,0.13581721484661102,-0.20772044360637665,-0.1440727710723877
1742841396267480000,6.30447998046875,0.1699046641588211,-0.19600287079811096,-0.0790935531258583
1742841396277468700,6.31446875,0.1720351278781891,-0.17895914614200592,0.011451254598796368
1742841396287457000,6.32445703125,0.1496652364730835,-0.16191542148590088,0.10306129604578018
1742841396297430500,6.334430419921875,0.09853405505418777,-0.11291470378637314,0.15738818049430847
1742841396307404300,6.344404296875,0.017576344311237335,-0.01917419396340847,0.14780108630657196
1742841396317380000,6.354380126953125,-0.0964035913348198,0.09906667470932007,0.10838746279478073
1742841396327358000,6.36435791015625,-0.22955772280693054,0.2119813710451126,0.06471290439367294
1742841396337338400,6.37433837890625,-0.348863810300827,0.3483312129974365,0.025299284607172012
1742841396347321600,6.384321533203125,-0.42982152104377747,0.5155727863311768,-0.020505735650658607
1742841396357307600,6.3943076171875,-0.4820179343223572,0.6785534620285034,-0.06524552404880524
1742841396367296800,6.404296875,-0.5097140073776245,0.8223599195480347,-0.0588541254401207
1742841396387280400,6.4242802734375,-0.4820179343223572,0.8521864414215088,0.164844810962677
1742841396397274600,6.434274658203125,-0.4031907021999359,0.7243584394454956,0.28734660148620605
1742841396407270700,6.444270751953125,-0.29240646958351135,0.5315513014793396,0.3352820873260498
1742841396417268700,6.454268798828125,-0.16564373672008514,0.29400432109832764,0.2905423045158386
1742841396427267800,6.464267822265625,-0.023967742919921875,0.012782796286046505,0.18401899933815002
1742841396437267700,6.474267822265625,0.1283605843782425,-0.2982652485370636,0.03275591507554054
1742841396447267800,6.484267822265625,0.2668408751487732,-0.576424241065979,-0.11850717663764954
1742841396457263000,6.49426318359375,0.3744294047355652,-0.792666494846344,-0.21331290900707245
1742841396467251700,6.504251708984375,0.4553871154785156,-0.946060061454773,-0.23781327903270721
1742841396477240300,6.514240234375,0.5054530501365662,-1.0163654088974,-0.21437814831733704
1742841396487229000,6.52422900390625,0.5129097104072571,-0.9918650984764099,-0.14939893782138824
1742841396497202000,6.534201904296875,0.4671046733856201,-0.8629719018936157,-0.06311506032943726
1742841396507175700,6.54417578125,0.3850817382335663,-0.6477948427200317,-0.0023967742454260588
1742841396517151000,6.55415087890625,0.27110180258750916,-0.3878779709339142,0.019973119720816612
1742841396527128600,6.564128662109375,0.13581721484661102,-0.1608501821756363,0.011451254598796368
1742841396537108700,6.574108642578125,0.0005326165119186044,-0.04154408723115921,-0.006657706573605537
1742841396547091700,6.584091796875,-0.13049104809761047,0.01171756349503994,-0.020505735650658607
1742841396557077800,6.594077880859375,-0.25086238980293274,0.07137060910463333,-0.03541899845004082
1742841396567066600,6.604066650390625,-0.34353765845298767,0.1288931965827942,-0.0482017956674099
1742841396577058300,6.614058349609375,-0.3914731442928314,0.1587197184562683,-0.0375494658946991
1742841396587052500,6.624052490234375,-0.40106022357940674,0.1715025156736374,0.002929390873759985
1742841396597049000,6.634049072265625,-0.3850817382335663,0.18322007358074188,0.04340824484825134
1742841396607047400,6.64404736328125,-0.34673336148262024,0.20772044360637665,0.0583215095102787
1742841396617047300,6.65404736328125,-0.2881455421447754,0.19600287079811096,0.03595161437988281
1742841396627047700,6.664047607421875,-0.19866596162319183,0.12250179797410965,-0.014114337973296642
1742841396637048600,6.674048583984375,-0.09001219272613525,-0.0021304660476744175,-0.04181039705872536
1742841396647046100,6.684046142578125,0.010119713842868805,-0.15552401542663574,-0.0077229393646121025
1742841396657034800,6.69403466796875,0.08255556225776672,-0.29400432109832764,0.08175663650035858
1742841396667023400,6.7040234375,0.1390129029750824,-0.38148656487464905,0.18082331120967865
1742841396677011700,6.71401171875,0.18801362812519073,-0.4155740439891815,0.2628462612628937
1742841396687000300,6.724000244140625,0.22423155605793,-0.3985303044319153,0.33102115988731384
1742841396696973600,6.7339736328125,0.2561885416507721,-0.34513550996780396,0.3768261969089508
1742841396706947000,6.743947021484375,0.28068891167640686,-0.29187384247779846,0.3864132761955261
1742841396716922600,6.753922607421875,0.30305880308151245,-0.23754696547985077,0.35126060247421265
1742841396726900200,6.763900146484375,0.3307548463344574,-0.2034595012664795,0.26817241311073303
1742841396736880600,6.773880615234375,0.3382114768028259,-0.2034595012664795,0.16164910793304443
1742841396746863900,6.78386376953125,0.3115806579589844,-0.1810896098613739,0.0583215095102787
1742841396756850000,6.793849853515625,0.264710396528244,-0.13315412402153015,-0.03648423030972481
1742841396766838800,6.8038388671875,0.20825305581092834,-0.05113118514418602,-0.10998530685901642
1742841396776830500,6.81383056640625,0.14433906972408295,0.07669677585363388,-0.12702903151512146
1742841396786824700,6.82382470703125,0.0857512578368187,0.2013290375471115,-0.07483261823654175
1742841396796820000,6.833820068359375,0.037815771996974945,0.30252617597579956,0.04447348043322563
1742841396806816500,6.84381640625,0.012250179424881935,0.35578784346580505,0.20532366633415222
1742841396816814600,6.853814697265625,0.0047935484908521175,0.30252617597579956,0.3043903410434723
1742841396826813700,6.863813720703125,0.00905448105186224,0.20558997988700867,0.2948032319545746
1742841396836813300,6.873813232421875,0.027163442224264145,0.13315412402153015,0.20532366633415222
1742841396846813200,6.883813232421875,0.045272402465343475,0.06924014538526535,0.06471290439367294
1742841396856806100,6.89380615234375,0.060185667127370834,0.01917419396340847,-0.07057169079780579
1742841396866794800,6.903794677734375,0.0633813664317131,-0.02236989326775074,-0.15152940154075623
1742841396876783400,6.913783447265625,0.054859500378370285,-0.05219641700387001,-0.14087706804275513
1742841396886772000,6.92377197265625,0.047402869910001755,-0.06284874677658081,-0.0695064514875412
1742841396896745000,6.933744873046875,0.042076703161001205,-0.0426093190908432,0.015712186694145203
1742841396906718700,6.94371875,0.046337638050317764,-0.00852186419069767,0.08601756393909454
1742841396916694000,6.953694091796875,0.0633813664317131,0.0053261648863554,0.12756165862083435
1742841396926671600,6.963671630859375,0.07616416364908218,0.0063913981430232525,0.16058388352394104
1742841396936652000,6.973652099609375,0.07935985922813416,0.0106523297727108,0.1765623688697815
1742841396946635000,6.983635009765625,0.08149032294750214,0.0010652330238372087,0.1541924774646759
1742841396956621000,6.99362109375,0.0750989317893982,0.03302222490310669,0.11371362209320068
1742841396966610000,7.00360986328125,0.053794268518686295,0.07882724702358246,0.08069140464067459
1742841396976601600,7.0136015625,0.036750540137290955,0.10013190656900406,0.06364767253398895
1742841396986595800,7.023595947265625,0.017576344311237335,0.13421936333179474,0.0476691760122776
1742841396996592400,7.03359228515625,-0.0026630824431777,0.1587197184562683,0.03169068321585655
1742841397006590700,7.0435908203125,-0.01438064593821764,0.1821548491716385,0.00399462366476655
1742841397016590300,7.05359033203125,-0.020772043615579605,0.2130466103553772,-0.026897134259343147
1742841397026591000,7.063591064453125,-0.028228675946593285,0.22582940757274628,-0.04394086077809334
1742841397036591900,7.073591796875,-0.037815771996974945,0.22902509570121765,-0.04926702752709389
1742841397046589200,7.083589111328125,-0.046337638050317764,0.2236989289522171,-0.03967992961406708
1742841397056577800,7.093577880859375,-0.052729032933712006,0.2119813710451126,-0.024766668677330017
1742841397066566400,7.10356640625,-0.052729032933712006,0.1800243854522705,-0.018375270068645477
1742841397076555000,7.113554931640625,-0.043141938745975494,0.12356702983379364,-0.0023967742454260588
1742841397086543400,7.12354345703125,-0.033554840832948685,0.05965305119752884,0.0370168462395668
1742841397096516400,7.133516357421875,-0.021837277337908745,-0.00852186419069767,0.07536523789167404
1742841397106490000,7.143489990234375,-0.00905448105186224,-0.06924014538526535,0.09347419440746307
1742841397116465400,7.15346533203125,0.0037283156998455524,-0.12463226169347763,0.08708280324935913
1742841397126443000,7.163443115234375,0.020772043615579605,-0.18748101592063904,0.06684337556362152
1742841397136423200,7.173423095703125,0.028228675946593285,-0.20985090732574463,0.03169068321585655
1742841397146406100,7.18340625,0.032489608973264694,-0.17363297939300537,-0.005592473316937685
1742841397156392200,7.19339208984375,0.037815771996974945,-0.11184946447610855,-0.04287562891840935
1742841397166381000,7.203381103515625,0.037815771996974945,-0.0532616525888443,-0.06311506032943726
1742841397176372700,7.213372802734375,0.035685304552316666,-0.009587096981704235,-0.07696308940649033
1742841397196363300,7.23336328125,0.01118494663387537,0.04047885537147522,-0.111050546169281
1742841397206361600,7.243361572265625,-0.010119713842868805,0.0426093190908432,-0.11957240849733353
1742841397216361200,7.253361328125,-0.032489608973264694,0.04473978653550148,-0.13128997385501862
1742841397226361900,7.26336181640625,-0.058055199682712555,0.03621792420744896,-0.11531147360801697
1742841397236362800,7.27336279296875,-0.0846860259771347,0.007456631399691105,-0.06844121962785721
1742841397246360600,7.283360595703125,-0.10066451877355576,-0.01491326279938221,-0.024766668677330017
1742841397256349200,7.29334912109375,-0.10279498994350433,-0.02236989326775074,0.0061250897124409676
1742841397266337800,7.303337890625,-0.08788172155618668,-0.02769605815410614,0.025299284607172012
1742841397276326400,7.313326416015625,-0.060185667127370834,-0.04047885537147522,0.029560215771198273
1742841397286314800,7.323314697265625,-0.022902509197592735,-0.05858781561255455,0.022103585302829742
1742841397296288000,7.3332880859375,0.01438064593821764,-0.06924014538526535,0.024234050884842873
1742841397306261500,7.343261474609375,0.048468101769685745,-0.07882724702358246,0.03595161437988281
1742841397316237000,7.353237060546875,0.06977276504039764,-0.09054480493068695,0.05938674136996269
1742841397326214700,7.363214599609375,0.06977276504039764,-0.08734910935163498,0.06790860742330551
1742841397336194800,7.37319482421875,0.0644465982913971,-0.06710968166589737,0.05299534276127815
1742841397346178000,7.383177978515625,0.053794268518686295,-0.05432688444852829,0.03914731368422508
1742841397356163800,7.393163818359375,0.032489608973264694,-0.04687025398015976,0.03169068321585655
1742841397366153000,7.403153076171875,0.006924014538526535,-0.04047885537147522,0.018907885998487473
1742841397376144600,7.41314453125,-0.012250179424881935,-0.03302222490310669,-0.0034620072692632675
1742841397386139000,7.423138916015625,-0.034620072692632675,-0.0319569893181324,-0.020505735650658607
1742841397396135400,7.433135498046875,-0.039946239441633224,-0.04047885537147522,-0.04500609636306763
1742841397406133800,7.4431337890625,-0.033554840832948685,-0.04047885537147522,-0.0695064514875412
1742841397416133400,7.45313330078125,-0.028228675946593285,-0.0213046595454216,-0.07589785009622574
1742841397426134000,7.463134033203125,-0.017576344311237335,0.004260932095348835,-0.0790935531258583
1742841397436134700,7.473134765625,-0.00585878174751997,0.03621792420744896,-0.0908111184835434
1742841397446132000,7.483132080078125,0.0015978495357558131,0.06071828305721283,-0.0908111184835434
1742841397456120600,7.49312060546875,0.006924014538526535,0.05858781561255455,-0.07376738637685776
1742841397466109200,7.503109130859375,0.010119713842868805,0.04047885537147522,-0.04500609636306763
1742841397476097500,7.51309765625,0.0015978495357558131,0.02343512699007988,-0.025831900537014008
1742841397486086100,7.523086181640625,-0.01438064593821764,0,-0.014114337973296642
1742841397496059400,7.533059326171875,-0.023967742919921875,-0.0213046595454216,-0.00452724052593112
1742841397506033200,7.543033203125,-0.033554840832948685,-0.02769605815410614,0.0061250897124409676
1742841397516008700,7.5530087890625,-0.032489608973264694,-0.01491326279938221,0.021038351580500603
1742841397525986300,7.562986328125,-0.022902509197592735,0.02236989326775074,0.028494983911514282
1742841397535966700,7.572966796875,-0.012250179424881935,0.0532616525888443,0.03169068321585655
1742841397545950000,7.582949951171875,0.0026630824431777,0.05752258375287056,0.019973119720816612
1742841397555935700,7.592935791015625,0.019706811755895615,0.04367455467581749,-0.005592473316937685
1742841397565924900,7.6029248046875,0.031424373388290405,0.02556559257209301,-0.026897134259343147
1742841397575916500,7.61291650390625,0.022902509197592735,0.02876129187643528,-0.03222329914569855
1742841397585910800,7.622910888671875,0.0047935484908521175,0.03302222490310669,-0.018375270068645477
1742841397595907000,7.632906982421875,-0.012250179424881935,0.02556559257209301,0.014646953903138638
1742841397605905400,7.642905517578125,-0.025032976642251015,0.012782796286046505,0.03808208182454109
1742841397615905000,7.652905029296875,-0.025032976642251015,-0.0063913981430232525,0.03808208182454109
1742841397625905400,7.662905517578125,-0.022902509197592735,-0.02876129187643528,0.023168819025158882
1742841397635906300,7.67290625,-0.019706811755895615,-0.03408745676279068,-0.008788172155618668
1742841397645903400,7.6829033203125,-0.01438064593821764,-0.01704372838139534,-0.05352795869112015
1742841397655892000,7.69289208984375,-0.010119713842868805,0.01384802907705307,-0.08761541545391083
1742841397665880600,7.702880615234375,-0.0047935484908521175,0.03941362351179123,-0.09507204592227936
1742841397675869200,7.712869140625,0.006924014538526535,0.05006595328450203,-0.0695064514875412
1742841397685857800,7.72285791015625,0.01118494663387537,0.03941362351179123,-0.023701434955000877
1742841397695830800,7.732830810546875,0.021837277337908745,0.02450035884976387,0.010386021807789803
1742841397705804300,7.74280419921875,0.029293907806277275,0.0213046595454216,0.027429750189185143
1742841397715779800,7.75277978515625,0.031424373388290405,0.0159784946590662,0.03914731368422508
1742841397725757400,7.76275732421875,0.010119713842868805,-0.0031956990715116262,0.08601756393909454
1742841397745720800,7.782720947265625,0.0079892473295331,-0.1384802907705307,0.10412652790546417
1742841397755707000,7.792706787109375,0.0026630824431777,-0.13102366030216217,0.04447348043322563
1742841397765695700,7.80269580078125,-0.0037283156998455524,-0.08734910935163498,-0.04287562891840935
1742841397775687400,7.8126875,-0.022902509197592735,0.0031956990715116262,-0.10678961127996445
1742841397785681700,7.822681640625,-0.059120431542396545,0.07776200771331787,-0.09933298081159592
1742841397795678200,7.83267822265625,-0.09214265644550323,0.12143656611442566,-0.04607132822275162
1742841397805676500,7.842676513671875,-0.1177082508802414,0.10332760214805603,-0.016244804486632347
